Folder: Ar_dissolution_HvdM/Experiment_2/XRD

Note: README.md
# Ar_dissolution_HvdM

File: XRD_results.csv
tth,A-1.5.cps,A-11.5.cps,A-13.5.cps,A-15.5.cps,A-3.5.cps,A-5.5.cps,A-7.5.cps,A-9.5.cps,B-1.5.cps,B-11.5.cps,B-13.5.cps,B-3.5.cps,B-5.5.cps,B-7.5.cps,B-9.5.cps
3.0001,3.17402,3.13725,3.25368,2.97181,3.10049,3.23529,2.84926,3.27206,3.20466,3.32721,2.70221,3.00245,2.62868,2.14461,3.33946
4.04382,1.62377,1.58701,1.59314,1.57475,1.78922,1.46446,1.48897,1.58701,1.60539,1.56863,1.53186,1.48284,1.40931,1.23775,1.74632
5.08755,1.15809,1.1826,0.821078,1.09681,0.9375,0.906863,1.14583,1.12132,1.21936,1.02328,0.925245,0.925245,1.08456,0.821078,1.02328
6.13127,0.790441,0.808824,0.814951,0.661765,0.680147,0.906863,0.906863,0.876226,0.925245,0.827206,0.784314,0.808824,0.778186,0.772059,0.796569
7.17499,0.723039,0.943627,0.753676,0.643382,0.729167,0.67402,0.827206,0.667892,0.729167,0.735294,0.643382,0.716912,0.735294,0.569853,0.716912
8.21872,0.667892,0.753676,0.606618,0.588235,0.569853,0.612745,0.606618,0.625,0.60049,0.64951,0.67402,0.612745,0.60049,0.416667,0.680147
9.26244,0.569853,0.569853,0.392157,0.539216,0.57598,0.539216,0.655637,0.588235,0.551471,0.459559,0.392157,0.441176,0.514706,0.563726,0.582108
10.3062,0.477941,0.526961,0.526961,0.435049,0.496324,0.588235,0.471814,0.441176,0.514706,0.520833,0.465686,0.502451,0.514706,0.539216,0.496324
11.3499,0.808824,0.618873,0.533088,0.508578,0.631127,0.539216,0.484069,0.551471,0.704657,0.490196,0.563726,0.484069,0.465686,0.563726,0.643382
12.3936,0.545343,0.465686,0.428922,0.588235,0.435049,0.514706,0.612745,0.551471,0.710784,0.661765,0.496324,0.539216,0.490196,0.67402,0.582108
13.4373,0.496324,0.67402,0.398284,0.588235,0.526961,0.496324,0.471814,0.441176,0.514706,0.557598,0.484069,0.490196,0.484069,0.539216,0.477941
14.4811,0.625,0.539216,0.563726,0.557598,0.471814,0.539216,0.557598,0.539216,0.459559,0.533088,0.502451,0.557598,0.520833,0.643382,0.551471
15.5248,0.551471,0.533088,0.490196,0.447304,0.453431,0.447304,0.533088,0.57598,0.447304,0.496324,0.428922,0.422794,0.545343,0.386029,0.465686
16.5685,0.557598,0.563726,0.416667,0.428922,0.502451,0.471814,0.508578,0.459559,0.484069,0.484069,0.459559,0.490196,0.459559,0.502451,0.490196
17.6122,0.514706,0.453431,0.398284,0.379902,0.441176,0.416667,0.502451,0.588235,0.435049,0.36152,0.453431,0.606618,0.477941,0.435049,0.502451
18.656,0.588235,0.533088,0.484069,0.496324,0.441176,0.465686,0.422794,0.453431,0.404412,0.539216,0.410539,0.471814,0.526961,0.435049,0.447304
19.6997,0.710784,0.57598,0.588235,0.539216,0.582108,0.508578,0.667892,0.502451,0.618873,0.551471,0.582108,0.563726,0.631127,0.60049,0.557598
20.7434,1.25613,0.667892,0.465686,0.686275,0.802696,0.729167,0.655637,0.704657,0.57598,0.588235,0.508578,0.533088,0.533088,0.502451,0.67402
21.7871,0.655637,0.618873,0.557598,0.563726,0.637255,0.741422,0.631127,0.57598,0.64951,0.612745,0.655637,0.661765,0.508578,0.477941,0.643382
22.8308,2.8125,3.8174,3.51103,3.46814,3.73162,3.28431,3.43137,3.40074,3.73162,3.46814,3.24142,3.75613,3.52941,3.21691,3.71324
23.8746,0.778186,0.686275,0.631127,0.563726,0.845588,0.710784,0.759804,0.716912,0.637255,0.551471,0.655637,0.637255,0.643382,0.563726,0.667892
24.9183,0.894608,0.698529,0.796569,0.533088,0.563726,0.716912,0.778186,0.60049,0.582108,0.569853,0.57598,0.667892,0.618873,0.539216,0.67402
25.962,1.60539,0.747549,0.539216,0.955882,0.790441,0.772059,0.772059,0.821078,0.680147,0.637255,0.723039,0.741422,0.612745,0.569853,0.686275
27.0057,1.69118,0.870098,0.704657,0.667892,0.753676,0.906863,0.821078,0.790441,0.796569,0.821078,0.631127,0.827206,0.729167,0.667892,0.716912
28.0495,1.875,2.06495,1.94853,2.05882,2.04044,2.13848,2.13848,1.95466,2.05882,1.8076,1.91176,1.94853,1.88113,1.91789,1.93627
29.0932,13.8174,17.7022,15.723,16.1213,16.1029,15.5699,16.3664,16.2561,16.2684,16.5625,15.2083,16.5993,16.0723,16.3971,16.6483
30.1369,2.57966,2.4326,2.62255,2.52451,2.64706,2.52451,2.97181,2.54289,2.48775,2.54289,2.20588,2.33456,2.30392,2.26716,2.67157
31.1806,1.97917,1.45221,1.55637,1.53186,1.62377,1.72181,1.77696,1.77696,1.55025,1.5625,1.45221,1.59314,1.53799,1.70956,1.6973
32.2244,0.998775,0.772059,0.919118,0.802696,0.919118,0.96201,1.01716,0.821078,0.796569,0.796569,0.729167,0.821078,0.686275,0.778186,0.851716
33.2681,1.73407,0.729167,0.692402,0.680147,0.698529,0.680147,0.667892,0.735294,0.710784,0.625,0.661765,0.741422,0.704657,0.631127,0.618873
34.3118,1.02941,0.857843,0.790441,0.821078,0.980392,0.9375,0.870098,0.827206,0.925245,0.870098,0.827206,0.802696,0.992647,0.827206,0.680147
35.3555,1.95466,1.60539,1.58701,1.43382,1.69118,1.83211,1.69118,1.56863,1.76471,1.61152,1.59314,1.66054,1.39093,0.857843,1.43995
36.3993,2.05882,1.59314,1.39706,1.72794,1.60539,1.7402,1.71569,1.54412,1.68505,1.55637,1.48897,1.72794,1.61152,1.41544,1.4951
37.443,1.34804,1.13971,0.925245,0.974265,1.04779,1.04167,1.04167,1.1152,1.12745,1.09681,0.96201,1.04779,0.9375,0.784314,1.0723
38.4867,2.04657,0.96201,0.857843,0.827206,1.06618,0.900735,1.07843,1.08456,0.992647,0.949755,0.9375,0.9375,0.96201,0.833333,0.88848
39.5304,10.3738,11.7892,12.5061,12.9412,11.6728,12.837,12.5551,12.2181,12.2672,12.8431,13.989,11.8015,12.0956,11.973,12.8002
40.5742,1.27451,1.01716,0.772059,0.8394608,0.8394608,0.91299,0.96201,0.900735,0.968137,0.919118,0.900735,1.0049,0.814951,0.88848,1.01103
41.6179,0.88848,0.833333,0.919118,0.906863,0.808824,0.919118,0.919118,0.894608,0.992647,0.863971,0.772059,0.845588,0.925245,0.91299,0.949755
42.6616,1.55025,1.40319,1.12745,1.51961,1.44608,1.5625,1.5625,1.3848,1.40319,1.53186,1.36029,1.55637,1.26838,1.39093,1.6299
43.7053,1.97917,1.91789,2.00368,1.92402,1.94853,1.89951,2.01593,1.94853,1.75245,1.91789,1.77083,1.95466,1.83824,1.37868,1.85049
44.749,1.05392,0.980392,0.900735,1.01103,0.698529,0.9375,1.06005,1.0049,1.0049,0.900735,0.845588,1.06005,1.04167,0.943627,1.25
45.7928,3.16176,1.28064,1.21936,1.17034,1.21324,1.28676,1.3174,1.25613,1.01103,1.28676,1.24387,1.20098,1.10907,1.06005,1.1826
46.8365,2.46324,2.8125,2.54902,2.84926,2.49387,2.64093,2.8125,2.73897,2.6777,2.83088,2.50613,2.83701,2.5674,2.64706,2.59804
47.8802,4.14216,4.25858,4.12377,4.02574,4.14828,4.29534,4.39951,4.05025,4.0625,4.5527,4.22181,4.14828,4.38113,4.05637,4.20343
48.9239,2.86152,2.90441,3.08211,2.88603,2.84926,3.18015,3.1924,2.98407,2.9473,3.11275,3.03309,2.92892,3.06373,2.91054,3.28431
49.9677,1.32966,0.931373,0.845588,0.821078,0.88848,0.91299,1.02941,1.0049,0.863971,0.894608,0.827206,0.759804,0.906863,0.980392,1.10907
51.0114,0.759804,0.8394608,0.716912,0.741422,0.863971,0.827206,0.759804,0.729167,0.67402,0.747549,0.692402,0.716912,0.845588,0.680147,0.759804
52.0551,1.0723,0.765931,0.827206,0.765931,0.759804,0.759804,0.851716,0.741422,0.698529,0.729167,0.765931,0.906863,0.692402,0.606618,0.845588
53.0988,1.31127,0.686275,0.747549,0.821078,0.692402,0.594363,0.606618,0.845588,0.686275,0.710784,0.802696,0.747549,0.643382,0.667892,0.704657
54.1426,0.753676,0.643382,0.765931,0.667892,0.569853,0.772059,0.698529,0.8394608,0.60049,0.67402,0.692402,0.710784,0.735294,0.625,0.747549
55.1863,0.845588,0.827206,0.667892,0.710784,0.796569,0.808824,0.833333,0.729167,0.625,0.661765,0.637255,0.772059,0.741422,0.704657,0.716912
56.23,1.34191,1.09681,1.14583,1.15809,1.20098,1.36029,1.34804,1.08456,1.0049,1.03554,1.21936,1.17647,0.974265,1.02328,1.21324
57.2737,4.35662,5.73529,5.28799,5.15931,5.4902,4.95711,5.52083,5.78431,6.0049,5.77206,5.22672,5.89461,5.59436,5.18382,5.8027
58.3175,1.15809,1.20711,1.22549,1.17034,1.14583,1.35417,1.40319,1.32966,1.14583,1.25,1.35417,1.39093,1.0723,1.04167,1.35417
59.3612,0.692402,0.692402,0.704657,0.796569,0.716912,0.882353,0.710784,0.735294,0.698529,0.716912,0.631127,0.704657,0.735294,0.698529,0.729167
60.4049,1.48284,1.59314,1.52574,1.56863,1.45221,1.53186,1.61152,1.64828,1.62377,1.64828,1.50735,1.60539,1.39706,1.46446,1.72181
61.4486,2.40196,2.76961,2.86152,2.7451,2.59804,2.98407,2.84926,2.86765,2.69608,2.76348,2.86152,2.84926,2.59191,2.8799,2.82475
62.4923,0.808824,0.91299,0.741422,0.765931,0.863971,0.814951,1.02328,0.790441,0.906863,0.716912,0.827206,0.821078,0.882353,0.735294,0.759804
63.5361,0.91299,1.04779,0.704657,0.821078,0.845588,1.06618,0.974265,0.870098,0.894608,0.845588,0.894608,0.698529,0.698529,0.857843,0.943627
64.5798,3.29657,4.31373,3.87868,4.41176,4.31985,4.00123,3.98284,4.32598,4.4424,4.26471,4.32598,4.31985,3.97672,4.56495,4.31373
65.6235,3.24142,3.79289,3.78676,4.39338,3.84804,3.55392,3.65196,3.74387,3.57843,3.67647,4.02574,3.52941,3.33333,4.03186,3.48039
66.6672,1.70343,1.36029,1.40931,1.44608,1.50123,1.3174,1.59314,1.50123,1.44608,1.33578,1.54412,1.65441,1.37255,0.747549,1.37868
67.711,1.23775,0.802696,0.661765,0.716912,0.747549,0.686275,0.729167,0.765931,0.704657,0.735294,0.704657,0.759804,0.747549,0.765931,0.765931
68.7547,0.900735,0.784314,0.925245,0.741422,0.704657,0.704657,0.876226,0.845588,0.882353,0.9375,0.765931,0.845588,0.802696,0.60049,0.772059
69.7984,0.882353,0.808824,0.88848,0.716912,0.906863,0.808824,0.833333,0.88848,0.9375,0.753676,0.716912,0.784314,0.790441,0.741422,0.882353
70.8421,0.710784,0.64951,0.612745,0.680147,0.698529,0.759804,0.747549,0.637255,0.60049,0.759804,0.692402,0.625,0.625,0.680147,0.692402
71.8859,0.637255,0.64951,0.643382,0.606618,0.514706,0.606618,0.569853,0.643382,0.539216,0.631127,0.514706,0.588235,0.526961,0.686275,0.533088
72.9296,2.10784,2.31005,2.50613,2.34681,2.4326,2.57966,2.42647,2.27941,2.45711,2.54289,2.70833,2.42647,2.56127,2.84926,2.64706
73.9733,0.802696,0.876226,0.667892,0.808824,0.802696,0.833333,0.827206,0.894608,0.667892,0.796569,0.704657,0.778186,0.851716,0.821078,0.821078
75.017,0.753676,0.710784,0.557598,0.729167,0.655637,0.520833,0.716912,0.710784,0.625,0.57598,0.57598,0.612745,0.563726,0.625,0.686275
76.0608,0.894608,0.747549,0.827206,0.821078,0.753676,0.808824,0.943627,0.833333,0.882353,1.01103,0.943627,1.06005,0.753676,0.735294,0.876226
77.1045,2.42647,2.62255,2.67157,2.6777,2.40196,2.2549,2.53064,2.54289,2.43873,2.56127,2.68995,2.62868,2.33456,2.51225,2.57353
78.1482,0.925245,0.655637,0.680147,0.582108,0.502451,0.643382,0.753676,0.484069,0.594363,0.612745,0.618873,0.631127,0.453431,0.67402,0.57598
79.1919,0.67402,0.545343,0.520833,0.508578,0.502451,0.582108,0.465686,0.526961,0.508578,0.618873,0.508578,0.551471,0.618873,0.502451,0.496324
79.9901,0.716912,0.539216,0.64951,0.557598,0.60049,0.569853,0.453431,0.594363,0.502451,0.477941,0.60049,0.594363,0.533088,0.490196,0.508578